Folder: PythonforChemists/course/data/exercises/X-ray_Diffraction

Note: README
Welcome to the Data Analysis and Visualization Course for Chemists and Material Scientists!
--------------------------------------------------------------------------------------------

This course is designed for better understanding how Python can be used for data analysis and visualization in the fields of chemistry and materials science. 

# The aim of this course

Due to the rapid development of data science and machine learning, Python has become more and more important in scientific research.

In some fields, Python is already the standard programming language for data analysis and visualization.
However, it seems that in other fields, such as chemistry and materials science, the use of Python is not yet as prevalent as in other areas.
This course aims to show you the advantages of using Python for data analysis and visualization in chemistry and materials science.

It is designed to be flexible and adaptable to your needs, allowing you to focus on the areas that are most relevant to your work or interests.

The plan is to create different levels of content, so that you can choose the level of difficulty that suits you best.

## Disclaimer

This course is still under construction and continuous development.

Errors, omissions, and changes are possible.


## Contribution

If you have any suggestions or feedback, please feel free to open an issue on GitHub.

You want to contribute to this course? Please open a pull request on GitHub.
It is highly appreciated if you can provide a clear description of your changes in the pull request.
It will help us to understand your changes and to review them more efficiently.


## Course

You can find the course under:

https://stkroe.github.io/PythonforChemists/

File: XRD_experimental.dat
    2.000       83
    2.135      203
    2.270      223
    2.405      261
    2.540      322
    2.675      386
    2.810      515
    2.945      668
    3.080     1148
    3.215      211
    3.350      111
    3.485      111
    3.620      109
    3.755      135
    3.890      142
    4.025      175
    4.160      190
    4.295      294
    4.430      581
    4.565      148
    4.700      102
    4.835       90
    4.970       89
    5.105       84
    5.240       88
    5.375       66
    5.510       73
    5.645       91
    5.780       97
    5.915      104
    6.050      146
    6.185      222
    6.320      240
    6.455      101
    6.590      100
    6.725      116
    6.860      163
    6.995      195
    7.130       99
    7.265       87
    7.400       78
    7.535       78
    7.670       87
    7.805       92
    7.940       93
    8.075      108
    8.210       98
    8.345       93
    8.480       90
    8.615      101
    8.750      100
    8.885      129
    9.020      108
    9.155      126
    9.290      169
    9.425      142
    9.560      124
    9.695      106
    9.830      111
    9.965      109
   10.100      126
   10.235      154
   10.370      139
   10.505      118
   10.640      103
   10.775      111
   10.910      109
   11.045      108
   11.180      131
   11.315      128
   11.450      107
   11.585      115
   11.720      136
   11.855      125
   11.990      153
   12.125      166
   12.260      130
   12.395      113
   12.530      103
   12.665       99
   12.800      121
   12.935      120
   13.070      107
   13.205      122
   13.340      103
   13.475      120
   13.610      145
   13.745      117
   13.880      103
   14.015      111
   14.150      100
   14.285      143
   14.420      117
   14.555       93
   14.690       94
   14.825       89
   14.960       97
   15.095      111
   15.230       96
   15.365       79
   15.500      100
   15.635      129
   15.770      123
   15.905       96
   16.040       98
   16.175       90
   16.310      103
   16.445       97
   16.580       85
   16.715       89
   16.850       79
   16.985       90
   17.120       69
   17.255       79
   17.390       72
   17.525      102
   17.660       82
   17.795       77
   17.930       89
   18.065       82
   18.200       86
   18.335       80
   18.470       77
   18.605       70
   18.740       74
   18.875       91
   19.010       69
   19.145      110
   19.280       95
   19.415      115
   19.550       96
   19.685       71
   19.820       73
   19.955       94
   20.090       90
   20.225       93
   20.360       73
   20.495       78
   20.630       89
   20.765       74
   20.900       85
   21.035       77
   21.170       70
   21.305       76
   21.440       69
   21.575       85
   21.710       67
   21.845       69
   21.980       66
   22.115       70
   22.250       71
   22.385       91
   22.520       82
   22.655       80
   22.790       80
   22.925       63
   23.060       74
   23.195       57
   23.330       84
   23.465       62
   23.600       71
   23.735       60
   23.870       78
   24.005       68
   24.140       70
   24.275       80
   24.410       63
   24.545       74
   24.680       92
   24.815       78
   24.950       82
   25.085       85
   25.220       72
   25.355       76
   25.490       87
   25.625       75
   25.760       72
   25.895       66
   26.030       73
   26.165       72
   26.300       75
   26.435       75
   26.570       64
   26.705       65
   26.840       72
   26.975       75
   27.110       80
   27.245       70
   27.380       93
   27.515      102
   27.650       66
   27.785       81
   27.920       74
   28.055       74
   28.190       88
   28.325       71
   28.460       79
   28.595       89
   28.730       74
   28.865       65
   29.000       60
   29.135       65
   29.270       84
   29.405       82
   29.540       72
   29.675       75
   29.810       76
   29.945       81
   30.080       70
   30.215       82
   30.350       81
   30.485       62
   30.620       68
   30.755       60
   30.890       77
   31.025       61
   31.160       63
   31.295       63
   31.430       70
   31.565       77
   31.700       72
   31.835       71
   31.970       46
   32.105       58
   32.240       64
   32.375       58
   32.510       55
   32.645       60
   32.780       67
   32.915       52
   33.050       65
   33.185       70
   33.320       60
   33.455       59
   33.590       65
   33.725       68
   33.860       59
   33.995       69
   34.130       69
   34.265       69
   34.400       51
   34.535       62
   34.670       61
   34.805       65
   34.940       55
   35.075       65
   35.210       54
   35.345       56
   35.480       54
   35.615       55
   35.750       56
   35.885       56
   36.020       57
   36.155       54
   36.290       43
   36.425       66
   36.560       44
   36.695       44
   36.830       58
   36.965       52
   37.100       46
   37.235       57
   37.370       47
   37.505       52
   37.640       51
   37.775       64
   37.910       56
   38.045       53
   38.180       48
   38.315       49
   38.450       55
   38.585       63
   38.720       55
   38.855       52
   38.990       54
   39.125       55
   39.260       58
   39.395       49
   39.530       53
   39.665       52
   39.800       64
   39.935       48
   40.070       50
   40.205       49
   40.340       56
   40.475       83
   40.610       60
   40.745       43
   40.880       53
   41.015       55
   41.150       48
   41.285       48
   41.420       53
   41.555       63
   41.690       54
   41.825       49
   41.885       55

File: XRD_theory.dat
1.0000 5.5753e-86
1.5500 0.0317888
2.1000 3.63374e-05
2.6500 0.411519
3.2000 4.59431
3.7500 0.00683704
4.3000 0.208184
4.8500 0.00155761
5.4000 3.10893e-13
5.9500 2.43432e-06
6.5000 0.0516311
7.0500 0.276448
7.6000 0.0908035
8.1500 0.719618
8.7000 0.0028994
9.2500 6.20819
9.8000 0.00205398
10.3500 2.3662
10.9000 0.00133027
11.4500 0.693368
12.0000 11.0946
12.5500 0.000466468
13.1000 0.0681758
13.6500 0.000122011
14.2000 10.1648
14.7500 0.191369
15.3000 2.18232e-08
15.8500 0.277449
16.4000 0.187048
16.9500 6.80813e-09
17.5000 5.26139e-05
18.0500 0.000139328
18.6000 0.00133842
19.1500 0.12197
19.7000 0.0386251
20.2500 0.000147226
20.8000 4.86741e-17
21.3500 3.83345e-25
21.9000 0.342532
22.4500 0.00139907
23.0000 9.77923e-22
23.5500 0.00256665
24.1000 8.84925e-37
24.6500 0.00417129
25.2000 3.2325e-28
25.7500 0.000871979
26.3000 2.7349e-16
26.8500 0.00273887
27.4000 3.48351e-20
27.9500 0.000361168
28.5000 4.40456e-58
29.0500 0.000297973
29.6000 4.5821e-12
30.1500 7.05937e-141
30.7000 0
31.2500 0
31.8000 0
32.3500 0
32.9000 0
33.4500 0
34.0000 0
34.5500 0
35.1000 0
35.6500 0
36.2000 0
36.7500 0
37.3000 0
37.8500 0
38.4000 0
38.9500 0
39.5000 0
40.0500 0
40.6000 0
41.1500 0
41.7000 0
42.2500 0
42.8000 0
43.3500 0
43.9000 0
44.4500 0
45.0000 0
45.5500 0
46.1000 0
46.6500 0
47.2000 0
47.7500 0
48.3000 0
48.8500 0
49.4000 0
49.9500 0
50.5000 0
51.0500 0
51.6000 0
52.1500 0
52.7000 0
53.2500 0
53.8000 0
54.3500 0
54.9000 0
55.4500 0
56.0000 0
56.5500 0
57.1000 0
57.6500 0
58.2000 0
58.7500 0
59.3000 0
59.8500 0
60.4000 0
60.9500 0
61.5000 0
62.0500 0
62.6000 0
63.1500 0
63.7000 0
64.2500 0
64.8000 0
65.3500 0
65.9000 0
66.4500 0
67.0000 0
67.5500 0
68.1000 0
68.6500 0
69.2000 0
69.7500 0
70.3000 0
70.8500 0
71.4000 0
71.9500 0
72.5000 0
73.0500 0
73.6000 0
74.1500 0
74.7000 0
75.2500 0
75.8000 0
76.3500 0
76.9000 0
77.4500 0
78.0000 0
78.5500 0
79.1000 0
79.6500 0
80.2000 0
80.7500 0
81.3000 0
81.8500 0
82.4000 0
82.9500 0
83.5000 0
84.0500 0
84.6000 0
85.1500 0
85.7000 0
86.2500 0
86.8000 0
87.3500 0
87.9000 0
88.4500 0
89.0000 0
89.5500 0
90.1000 0
90.6500 0
91.2000 0
91.7500 0
92.3000 0
92.8500 0
93.4000 0
93.9500 0
94.5000 0
95.0500 0
95.6000 0
96.1500 0
96.7000 0
97.2500 0
97.8000 0
98.3500 0
98.9000 0
99.4500 0
100.0000 0
100.5500 0
101.1000 0
101.6500 0
102.2000 0
102.7500 0
103.3000 0
103.8500 0
104.4000 0
104.9500 0
105.5000 0
106.0500 0
106.6000 0
107.1500 0
107.7000 0
108.2500 0
108.8000 0
109.3500 0
109.9000 0
110.4500 0
111.0000 0
111.5500 0
112.1000 0
112.6500 0
113.2000 0
113.7500 0
114.3000 0
114.8500 0
115.4000 0
115.9500 0
116.5000 0
117.0500 0
117.6000 0
118.1500 0
118.7000 0
119.2500 0
119.8000 0
120.3500 0
120.9000 0
121.4500 0
122.0000 0
122.5500 0
123.1000 0
123.6500 0
124.2000 0
124.7500 0
125.3000 0
125.8500 0
126.4000 0
126.9500 0
127.5000 0
128.0500 0
128.6000 0
129.1500 0
129.7000 0
130.2500 0
130.8000 0
131.3500 0
131.9000 0
132.4500 0
133.0000 0
133.5500 0
134.1000 0
134.6500 0
135.2000 0
135.7500 0
136.3000 0
136.8500 0
137.4000 0
137.9500 0
138.5000 0
139.0500 0
139.6000 0
140.1500 0
140.7000 0
141.2500 0
141.8000 0
142.3500 0
142.9000 0
143.4500 0
144.0000 0
144.5500 0
145.1000 0
145.6500 0
146.2000 0
146.7500 0
147.3000 0
147.8500 0
148.4000 0
148.9500 0
149.5000 0
150.0500 0
150.6000 0
151.1500 0
151.7000 0
152.2500 0
152.8000 0
153.3500 0
153.9000 0
154.4500 0
155.0000 0
155.5500 0
156.1000 0
156.6500 0
157.2000 0
157.7500 0
158.3000 0
158.8500 0
159.4000 0
159.9500 0
160.5000 0
161.0500 0
161.6000 0
162.1500 0
162.7000 0
163.2500 0
163.8000 0
164.3500 0
164.9000 0
165.0000 0